Folder: SegVal_Repo/segmentation_results/3D_Unet/Task004_SegVal_Hippocampus/subsampled-stats-DSC-Hippocampus-Jan1118

Note: segmentation_results/3D_Unet/Task004_SegVal_Hippocampus/subsampled-stats-DSC-Hippocampus-Jan1118/Boot_txt_log.txt
$k$ = 10&89.751 $\pm$ 0.758 &2.578 $\pm$ 0.608&0.815 &[-1.6, 1.6]&89.752 $\pm$ 0.759 &0.815&[-1.6473999999999998, 1.525]
$k$ = 20&89.723 $\pm$ 0.551 &2.666 $\pm$ 0.455&0.596 &[-1.17, 1.17]&89.724 $\pm$ 0.551 &0.597&[-1.2039, 1.1275]
$k$ = 30&89.681 $\pm$ 0.429 &2.785 $\pm$ 0.38&0.508 &[-0.995, 0.995]&89.682 $\pm$ 0.43 &0.508&[-1.0232, 0.9684999999999999]
$k$ = 50&89.768 $\pm$ 0.277 &2.707 $\pm$ 0.227&0.383 &[-0.75, 0.75]&89.768 $\pm$ 0.276 &0.383&[-0.7660000000000001, 0.7341]
$k$ = 100&89.721 $\pm$ 0.085 &2.788 $\pm$ 0.069&0.279 &[-0.545, 0.545]&89.721 $\pm$ 0.085 &0.279&[-0.5568000000000001, 0.5362]
$k$ = 110&89.714 $\pm$ 0.0 &2.784 $\pm$ 0.0&0.265 &[-0.52, 0.52]&89.714 $\pm$ 0.002 &0.266&[-0.5285000000000002, 0.5121999999999998]

Note: segmentation_results/3D_Unet/Task004_SegVal_Hippocampus/subsampled-stats-DSC-Hippocampus-Jan1118/full_txt_log.txt
stats and bootstrapp: 89.714  &  2.797  &  0.267  &  [--0.5225, 0.5225]  & 89.713 &  0.266 &  [--0.53, 0.51]

Note: README.md
# SegVal_TMI
Code used to re-generate the results and tables for the paper entitled: "Confidence intervals for performance estimates in 3D medical image segmentation". 


# Training

For the training we have used the original implementation of nnUnet. The code is forked from the initial directory and can be found following this [link](https://github.com/rosanajurdi/nnUNet_SegVal)

File: subsampled-stats-DSC-Hippocampus-Jan11.csv
,sample-set,u-kj,sigma-kj,SEM-kj,w-kj,A-kj,B-kj,u-kj-star,SEM-kj-star,w-kj-star,A-kj-star,B-kj-star
0,10,90.292,2.9018,0.918,3.59856,-1.7986,1.7986,90.294,0.925,3.58,-1.91,1.67
5,10,87.861,2.84618,0.9,3.528,-1.7641,1.7641,87.868,0.9,3.55,-1.78,1.76
10,10,90.231,2.53709,0.802,3.14384,-1.5725,1.5725,90.237,0.798,3.11,-1.59,1.51
15,10,89.638,2.64987,0.838,3.28496,-1.6424,1.6424,89.644,0.841,3.31,-1.72,1.58
20,10,88.784,3.62644,1.147,4.49624,-2.2477,2.2477,88.768,1.136,4.43,-2.49,1.95
25,10,89.845,1.57864,0.499,1.95608,-0.9785,0.9785,89.843,0.504,1.98,-0.99,0.99
30,10,89.52,2.40591,0.761,2.98312,-1.4912,1.4912,89.523,0.758,2.94,-1.56,1.39
35,10,89.948,2.43605,0.77,3.0184,-1.5099,1.5099,89.944,0.765,2.99,-1.49,1.5
40,10,89.115,2.34136,0.74,2.9008,-1.4512,1.4512,89.125,0.736,2.86,-1.47,1.38
45,10,89.583,2.03993,0.645,2.5284,-1.2644,1.2644,89.588,0.643,2.5,-1.3,1.2
50,10,90.137,2.15727,0.682,2.67344,-1.3371,1.3371,90.13,0.683,2.65,-1.35,1.3
55,10,89.2,2.54881,0.806,3.15952,-1.5798,1.5798,89.209,0.801,3.11,-1.59,1.52
60,10,89.241,2.76376,0.874,3.42608,-1.713,1.713,89.236,0.875,3.4,-1.7,1.7
65,10,90.619,2.10296,0.665,2.6068,-1.3034,1.3034,90.619,0.664,2.59,-1.38,1.21
70,10,89.905,3.03624,0.96,3.7632,-1.8819,1.8819,89.893,0.966,3.75,-2.03,1.72
75,10,90.933,1.65343,0.523,2.05016,-1.0248,1.0248,90.929,0.529,2.06,-1.13,0.93
80,10,88.793,3.72291,1.177,4.61384,-2.3075,2.3075,88.806,1.166,4.5,-2.45,2.05
85,10,89.048,2.92658,0.925,3.626,-1.8139,1.8139,89.055,0.922,3.57,-1.84,1.73
90,10,90.678,1.66601,0.527,2.06584,-1.0326,1.0326,90.677,0.528,2.07,-1.05,1.02
95,10,90.421,3.4355,1.086,4.25712,-2.1293,2.1293,90.417,1.076,4.24,-2.26,1.98
100,20,89.646,2.46412,0.551,2.15992,-1.0799,1.0799,89.646,0.554,2.16,-1.11,1.05
105,20,89.7055,3.43532,0.768,3.01056,-1.5056,1.5056,89.717,0.767,2.99,-1.62,1.38
110,20,90.039,2.08944,0.467,1.83064,-0.9157,0.9157,90.038,0.468,1.84,-0.97,0.88
115,20,89.6355,2.41162,0.539,2.11288,-1.0569,1.0569,89.633,0.545,2.14,-1.11,1.04
120,20,89.5935,1.9988,0.447,1.75224,-0.876,0.876,89.595,0.45,1.76,-0.9,0.86
125,20,89.817,2.41672,0.54,2.1168,-1.0592,1.0592,89.817,0.541,2.1,-1.13,0.96
130,20,89.634,2.15094,0.481,1.88552,-0.9427,0.9427,89.639,0.482,1.89,-0.96,0.94
135,20,90.417,3.42951,0.767,3.00664,-1.5031,1.5031,90.415,0.762,2.97,-1.59,1.38
140,20,88.7785,2.9193,0.653,2.55976,-1.2794,1.2794,88.775,0.655,2.59,-1.32,1.27
145,20,90.033,2.80548,0.627,2.45784,-1.2296,1.2296,90.03,0.628,2.45,-1.29,1.16
150,20,89.1885,2.28391,0.511,2.00312,-1.001,1.001,89.186,0.512,1.99,-1.02,0.98
155,20,90.3755,3.19709,0.715,2.8028,-1.4012,1.4012,90.372,0.71,2.76,-1.44,1.33
160,20,90.6085,2.41166,0.539,2.11288,-1.057,1.057,90.607,0.543,2.13,-1.09,1.04
165,20,90.4805,2.19861,0.492,1.92864,-0.9636,0.9636,90.482,0.492,1.94,-0.99,0.95
170,20,90.157,1.82014,0.407,1.59544,-0.7977,0.7977,90.158,0.404,1.58,-0.82,0.75
175,20,90.093,2.12545,0.475,1.862,-0.9315,0.9315,90.095,0.474,1.85,-0.97,0.87
180,20,89.772,3.40285,0.761,2.98312,-1.4914,1.4914,89.773,0.76,2.95,-1.51,1.43
185,20,88.613,3.32962,0.745,2.9204,-1.4593,1.4593,88.617,0.745,2.9,-1.46,1.45
190,20,90.356,2.31556,0.518,2.03056,-1.0148,1.0148,90.357,0.518,2.02,-1.03,0.99
195,20,89.305,2.24803,0.503,1.97176,-0.9852,0.9852,89.305,0.51,1.99,-0.96,1.04
200,30,89.8317,3.0798,0.562,2.20304,-1.1021,1.1021,89.834,0.559,2.19,-1.14,1.06
205,30,89.9603,2.65477,0.485,1.9012,-0.95,0.95,89.965,0.486,1.9,-0.98,0.93
210,30,90.0017,2.26501,0.414,1.62288,-0.8105,0.8105,90.002,0.418,1.64,-0.84,0.8
215,30,89.8927,2.7439,0.501,1.96392,-0.9819,0.9819,89.899,0.507,2.0,-1.03,0.97
220,30,89.6507,3.19599,0.584,2.28928,-1.1437,1.1437,89.646,0.585,2.27,-1.2,1.08
225,30,88.988,3.20945,0.586,2.29712,-1.1485,1.1485,88.989,0.588,2.28,-1.19,1.1
230,30,89.5707,2.30792,0.421,1.65032,-0.8259,0.8259,89.578,0.422,1.67,-0.85,0.82
235,30,89.952,2.72706,0.498,1.95216,-0.9759,0.9759,89.951,0.499,1.94,-0.98,0.95
240,30,90.214,2.99718,0.547,2.14424,-1.0725,1.0725,90.212,0.546,2.17,-1.12,1.05
245,30,89.1027,3.10769,0.567,2.22264,-1.1121,1.1121,89.099,0.567,2.22,-1.13,1.09
250,30,89.1497,3.29053,0.601,2.35592,-1.1775,1.1775,89.151,0.597,2.33,-1.21,1.12
255,30,90.1423,2.7464,0.501,1.96392,-0.9828,0.9828,90.148,0.498,1.95,-0.98,0.97
260,30,89.708,2.97744,0.544,2.13248,-1.0655,1.0655,89.711,0.543,2.13,-1.09,1.04
265,30,89.514,2.76498,0.505,1.9796,-0.9894,0.9894,89.517,0.507,1.97,-1.0,0.97
270,30,90.4153,2.12022,0.387,1.51704,-0.7587,0.7587,90.416,0.386,1.52,-0.76,0.75
275,30,89.6727,2.86045,0.522,2.04624,-1.0236,1.0236,89.677,0.522,2.06,-1.05,1.01
280,30,89.2147,3.17576,0.58,2.2736,-1.1364,1.1364,89.216,0.581,2.27,-1.15,1.12
285,30,90.0727,2.53826,0.463,1.81496,-0.9083,0.9083,90.077,0.461,1.81,-0.94,0.87
290,30,90.1857,2.14998,0.393,1.54056,-0.7694,0.7694,90.185,0.391,1.53,-0.77,0.76
295,30,89.8347,3.07894,0.562,2.20304,-1.1018,1.1018,89.838,0.564,2.2,-1.16,1.04
300,50,89.668,2.82622,0.4,1.568,-0.7834,0.7834,89.667,0.402,1.57,-0.81,0.76
305,50,89.8816,2.91123,0.412,1.61504,-0.807,0.807,89.877,0.411,1.6,-0.82,0.78
310,50,89.2932,2.76786,0.391,1.53272,-0.7672,0.7672,89.293,0.389,1.53,-0.77,0.75
315,50,89.6226,2.83109,0.4,1.568,-0.7847,0.7847,89.624,0.399,1.55,-0.8,0.76
320,50,89.9082,2.91728,0.413,1.61896,-0.8086,0.8086,89.908,0.412,1.61,-0.81,0.8
325,50,89.6388,3.09883,0.438,1.71696,-0.859,0.859,89.633,0.442,1.73,-0.88,0.85
330,50,90.1154,2.38262,0.337,1.32104,-0.6604,0.6604,90.117,0.336,1.32,-0.68,0.64
335,50,89.801,2.76608,0.391,1.53272,-0.7667,0.7667,89.804,0.395,1.55,-0.79,0.77
340,50,90.0254,2.88445,0.408,1.59936,-0.7995,0.7995,90.026,0.41,1.6,-0.83,0.77
345,50,90.0812,2.78014,0.393,1.54056,-0.7706,0.7706,90.081,0.395,1.55,-0.79,0.76
350,50,89.4106,2.78623,0.394,1.54448,-0.7723,0.7723,89.408,0.394,1.53,-0.79,0.75
355,50,89.7172,2.89998,0.41,1.6072,-0.8038,0.8038,89.714,0.407,1.6,-0.81,0.79
360,50,89.4486,2.70178,0.382,1.49744,-0.7489,0.7489,89.448,0.386,1.51,-0.76,0.74
365,50,89.9708,2.74574,0.388,1.52096,-0.7611,0.7611,89.968,0.39,1.53,-0.79,0.75
370,50,90.096,2.43619,0.345,1.3524,-0.6753,0.6753,90.103,0.342,1.35,-0.69,0.66
375,50,90.0044,2.42345,0.343,1.34456,-0.6717,0.6717,90.005,0.341,1.32,-0.67,0.66
380,50,89.7948,3.0254,0.428,1.67776,-0.8386,0.8386,89.79,0.429,1.68,-0.87,0.81
385,50,89.8862,2.54586,0.36,1.4112,-0.7057,0.7057,89.886,0.358,1.41,-0.71,0.71
390,50,90.0962,2.58768,0.366,1.43472,-0.7173,0.7173,90.095,0.367,1.43,-0.72,0.7
395,50,89.8404,3.19647,0.452,1.77184,-0.886,0.886,89.839,0.452,1.78,-0.92,0.86
400,100,89.7934,2.79747,0.28,1.0976,-0.5483,0.5483,89.795,0.281,1.12,-0.57,0.55
405,100,89.6421,2.82074,0.282,1.10544,-0.5529,0.5529,89.642,0.283,1.11,-0.56,0.55
410,100,89.8079,2.70563,0.271,1.06232,-0.5303,0.5303,89.809,0.272,1.07,-0.54,0.53
415,100,89.8,2.80595,0.281,1.10152,-0.55,0.55,89.799,0.282,1.11,-0.57,0.54
420,100,89.6173,2.83126,0.283,1.10936,-0.5549,0.5549,89.618,0.285,1.11,-0.57,0.54
425,100,89.757,2.73706,0.274,1.07408,-0.5365,0.5365,89.756,0.274,1.07,-0.55,0.53
430,100,89.808,2.73316,0.273,1.07016,-0.5357,0.5357,89.806,0.273,1.07,-0.54,0.53
435,100,89.6867,2.89,0.289,1.13288,-0.5664,0.5664,89.686,0.287,1.12,-0.57,0.56
440,100,89.715,2.77998,0.278,1.08976,-0.5449,0.5449,89.714,0.277,1.08,-0.55,0.53
445,100,89.7576,2.77915,0.278,1.08976,-0.5447,0.5447,89.76,0.282,1.11,-0.57,0.54
450,100,89.8372,2.81085,0.281,1.10152,-0.5509,0.5509,89.837,0.282,1.09,-0.56,0.54
455,100,89.7239,2.80716,0.281,1.10152,-0.5502,0.5502,89.726,0.281,1.11,-0.56,0.54
460,100,89.8906,2.62832,0.263,1.03096,-0.5152,0.5152,89.888,0.264,1.02,-0.52,0.5
465,100,89.5863,2.77815,0.278,1.08976,-0.5445,0.5445,89.587,0.275,1.08,-0.54,0.53
470,100,89.7338,2.6891,0.269,1.05448,-0.5271,0.5271,89.733,0.273,1.08,-0.54,0.53
475,100,89.6383,2.78322,0.278,1.08976,-0.5455,0.5455,89.638,0.278,1.1,-0.56,0.54
480,100,89.6597,2.8272,0.283,1.10936,-0.5541,0.5541,89.654,0.281,1.11,-0.57,0.55
485,100,89.836,2.62601,0.263,1.03096,-0.5147,0.5147,89.836,0.26,1.01,-0.52,0.5
490,100,89.6479,2.83955,0.284,1.11328,-0.5566,0.5566,89.652,0.283,1.12,-0.57,0.54
495,100,89.7806,2.70649,0.271,1.06232,-0.5305,0.5305,89.778,0.27,1.07,-0.55,0.52
500,110,89.7137,2.7844,0.265,1.0388,-0.5203,0.5203,89.715,0.263,1.04,-0.52,0.51
505,110,89.7137,2.7844,0.265,1.0388,-0.5203,0.5203,89.713,0.267,1.04,-0.53,0.51
510,110,89.7137,2.7844,0.265,1.0388,-0.5203,0.5203,89.712,0.265,1.04,-0.52,0.52
515,110,89.7137,2.7844,0.265,1.0388,-0.5203,0.5203,89.715,0.265,1.04,-0.53,0.51
520,110,89.7137,2.7844,0.265,1.0388,-0.5203,0.5203,89.712,0.266,1.06,-0.54,0.51
525,110,89.7137,2.7844,0.265,1.0388,-0.5203,0.5203,89.713,0.264,1.05,-0.53,0.51
530,110,89.7137,2.7844,0.265,1.0388,-0.5203,0.5203,89.71,0.266,1.04,-0.53,0.51
535,110,89.7137,2.7844,0.265,1.0388,-0.5203,0.5203,89.718,0.264,1.03,-0.53,0.51
540,110,89.7137,2.7844,0.265,1.0388,-0.5203,0.5203,89.716,0.266,1.05,-0.53,0.51
545,110,89.7137,2.7844,0.265,1.0388,-0.5203,0.5203,89.718,0.263,1.03,-0.52,0.51
550,110,89.7137,2.7844,0.265,1.0388,-0.5203,0.5203,89.716,0.265,1.03,-0.53,0.51
555,110,89.7137,2.7844,0.265,1.0388,-0.5203,0.5203,89.713,0.266,1.05,-0.53,0.52
560,110,89.7137,2.7844,0.265,1.0388,-0.5203,0.5203,89.718,0.266,1.04,-0.53,0.52
565,110,89.7137,2.7844,0.265,1.0388,-0.5203,0.5203,89.714,0.265,1.04,-0.53,0.52
570,110,89.7137,2.7844,0.265,1.0388,-0.5203,0.5203,89.711,0.266,1.05,-0.53,0.52
575,110,89.7137,2.7844,0.265,1.0388,-0.5203,0.5203,89.714,0.269,1.05,-0.53,0.52
580,110,89.7137,2.7844,0.265,1.0388,-0.5203,0.5203,89.709,0.266,1.05,-0.54,0.51
585,110,89.7137,2.7844,0.265,1.0388,-0.5203,0.5203,89.714,0.266,1.05,-0.53,0.51
590,110,89.7137,2.7844,0.265,1.0388,-0.5203,0.5203,89.716,0.264,1.03,-0.53,0.5
595,110,89.7137,2.7844,0.265,1.0388,-0.5203,0.5203,89.714,0.266,1.05,-0.53,0.51
599,110,89.7137,2.7844,0.265,1.0388,-0.5203,0.5203,89.712,0.267,1.05,-0.54,0.51