Folder: SegVal_Repo/segmentation_results/2D_Unet/Task004_SegVal_Hippocampus/subsampled-stats-DSC-Hippocampus-Jan1117

Note: segmentation_results/2D_Unet/Task004_SegVal_Hippocampus/subsampled-stats-DSC-Hippocampus-Jan1117/Boot_txt_log.txt
$k$ = 10&88.277 $\pm$ 0.688 &2.707 $\pm$ 0.319&0.856 &[-1.68, 1.68]&88.28 $\pm$ 0.686 &0.855&[-1.775, 1.56]
$k$ = 10&88.334 $\pm$ 0.881 &2.759 $\pm$ 1.008&0.872 &[-1.71, 1.71]&88.335 $\pm$ 0.882 &0.872&[-1.7798000000000003, 1.6082000000000003]
$k$ = 20&88.189 $\pm$ 0.646 &3.082 $\pm$ 0.844&0.689 &[-1.35, 1.35]&88.19 $\pm$ 0.645 &0.689&[-1.4254, 1.2633]
$k$ = 30&88.126 $\pm$ 0.59 &3.281 $\pm$ 0.723&0.599 &[-1.175, 1.175]&88.126 $\pm$ 0.59 &0.599&[-1.2401, 1.1024]
$k$ = 50&88.254 $\pm$ 0.312 &3.12 $\pm$ 0.456&0.441 &[-0.865, 0.865]&88.255 $\pm$ 0.312 &0.441&[-0.9046, 0.8218000000000001]
$k$ = 100&88.212 $\pm$ 0.088 &3.261 $\pm$ 0.126&0.326 &[-0.64, 0.64]&88.212 $\pm$ 0.087 &0.326&[-0.6639000000000003, 0.6122]
$k$ = 110&88.197 $\pm$ 0.0 &3.252 $\pm$ 0.0&0.31 &[-0.61, 0.61]&88.197 $\pm$ 0.003 &0.31&[-0.6312, 0.5845]

Note: segmentation_results/2D_Unet/Task004_SegVal_Hippocampus/subsampled-stats-DSC-Hippocampus-Jan1117/full_txt_log.txt
stats and bootstrapp: 88.197  &  3.267  &  0.311  &  [--0.6105, 0.6105]  & 88.198 &  0.312 &  [--0.64, 0.59]

Note: README.md
# SegVal_TMI
Code used to re-generate the results and tables for the paper entitled: "Confidence intervals for performance estimates in 3D medical image segmentation". 


# Training

For the training we have used the original implementation of nnUnet. The code is forked from the initial directory and can be found following this [link](https://github.com/rosanajurdi/nnUNet_SegVal)

File: subsampled-stats-DSC-Hippocampus-Jan11.csv
,sample-set,u-kj,sigma-kj,SEM-kj,w-kj,A-kj,B-kj,u-kj-star,SEM-kj-star,w-kj-star,A-kj-star,B-kj-star
0,10,88.764,2.93209,0.927,3.63384,-1.8173,1.8173,88.765,0.933,3.63,-2.0,1.62
5,10,86.196,4.08577,1.292,5.06464,-2.5324,2.5324,86.213,1.303,5.12,-2.67,2.46
10,10,89.492,2.26164,0.715,2.8028,-1.4018,1.4018,89.497,0.711,2.78,-1.37,1.41
15,10,88.696,2.72958,0.863,3.38296,-1.6918,1.6918,88.703,0.863,3.35,-1.72,1.64
20,10,87.348,3.50153,1.107,4.33944,-2.1703,2.1703,87.334,1.095,4.29,-2.38,1.91
25,10,87.674,1.5619,0.494,1.93648,-0.9681,0.9681,87.675,0.5,1.96,-0.93,1.03
30,10,88.196,2.18209,0.69,2.7048,-1.3525,1.3525,88.201,0.691,2.69,-1.31,1.38
35,10,88.17,2.93037,0.927,3.63384,-1.8163,1.8163,88.176,0.929,3.61,-1.81,1.8
40,10,88.161,2.72552,0.862,3.37904,-1.6893,1.6893,88.167,0.855,3.34,-1.63,1.71
45,10,88.49,2.58118,0.816,3.19872,-1.5998,1.5998,88.492,0.818,3.19,-1.66,1.53
50,10,88.708,2.6181,0.828,3.24576,-1.6227,1.6227,88.702,0.824,3.22,-1.62,1.6
55,10,88.805,2.55504,0.808,3.16736,-1.5836,1.5836,88.813,0.802,3.13,-1.65,1.48
60,10,88.434,2.84499,0.9,3.528,-1.7633,1.7633,88.43,0.901,3.51,-1.82,1.69
65,10,89.932,1.7344,0.548,2.14816,-1.075,1.075,89.933,0.546,2.1,-1.18,0.92
70,10,87.176,5.74375,1.816,7.11872,-3.56,3.56,87.152,1.832,6.97,-3.99,2.98
75,10,89.916,1.83551,0.58,2.2736,-1.1377,1.1377,89.911,0.585,2.28,-1.17,1.11
80,10,87.143,3.84763,1.217,4.77064,-2.3848,2.3848,87.155,1.206,4.68,-2.42,2.25
85,10,87.853,3.12866,0.989,3.87688,-1.9392,1.9392,87.865,0.988,3.84,-1.98,1.86
90,10,88.869,2.44277,0.772,3.02624,-1.514,1.514,88.87,0.768,2.96,-1.59,1.37
95,10,89.126,4.21762,1.334,5.22928,-2.6141,2.6141,89.129,1.318,5.15,-2.96,2.19
100,20,88.4245,2.48575,0.556,2.17952,-1.0894,1.0894,88.425,0.56,2.18,-1.13,1.06
105,20,87.6125,4.65753,1.041,4.08072,-2.0413,2.0413,87.624,1.039,4.04,-2.27,1.77
110,20,88.623,2.38902,0.534,2.09328,-1.047,1.047,88.625,0.539,2.09,-1.1,0.99
115,20,88.27,2.59651,0.581,2.27752,-1.138,1.138,88.269,0.585,2.29,-1.17,1.12
120,20,88.4835,2.32189,0.519,2.03448,-1.0176,1.0176,88.489,0.521,2.05,-1.05,1.0
125,20,87.8175,4.09113,0.915,3.5868,-1.793,1.793,87.819,0.92,3.52,-2.09,1.43
130,20,88.3205,2.67358,0.598,2.34416,-1.1717,1.1717,88.324,0.598,2.34,-1.16,1.17
135,20,88.7855,3.84304,0.859,3.36728,-1.6843,1.6843,88.787,0.851,3.32,-1.74,1.59
140,20,87.3365,4.47698,1.001,3.92392,-1.9621,1.9621,87.327,1.008,3.93,-2.19,1.74
145,20,87.932,3.33691,0.746,2.92432,-1.4625,1.4625,87.922,0.744,2.9,-1.55,1.35
150,20,87.7835,2.68355,0.6,2.352,-1.1761,1.1761,87.782,0.602,2.33,-1.18,1.15
155,20,88.5515,4.62673,1.035,4.0572,-2.0278,2.0278,88.543,1.029,3.99,-2.25,1.74
160,20,89.0795,2.24104,0.501,1.96392,-0.9822,0.9822,89.078,0.502,1.97,-1.01,0.96
165,20,88.5785,2.56729,0.574,2.25008,-1.1252,1.1252,88.582,0.577,2.25,-1.16,1.09
170,20,89.252,1.9883,0.445,1.7444,-0.8714,0.8714,89.254,0.44,1.71,-0.89,0.82
175,20,88.466,2.31361,0.517,2.02664,-1.014,1.014,88.467,0.515,2.02,-1.04,0.98
180,20,87.8755,4.4968,1.006,3.94352,-1.9708,1.9708,87.885,1.006,3.88,-2.2,1.69
185,20,86.876,4.80016,1.073,4.20616,-2.1038,2.1038,86.886,1.073,4.19,-2.29,1.9
190,20,88.81,2.72765,0.61,2.3912,-1.1954,1.1954,88.813,0.611,2.4,-1.25,1.15
195,20,88.4845,2.20588,0.493,1.93256,-0.9668,0.9668,88.484,0.502,1.97,-1.0,0.97
200,30,88.2643,2.96238,0.541,2.12072,-1.0601,1.0601,88.265,0.54,2.11,-1.1,1.01
205,30,88.3057,3.75356,0.685,2.6852,-1.3432,1.3432,88.311,0.686,2.66,-1.51,1.15
210,30,88.8533,2.16112,0.395,1.5484,-0.7733,0.7733,88.853,0.399,1.57,-0.79,0.78
215,30,87.6383,3.76026,0.687,2.69304,-1.3456,1.3456,87.648,0.692,2.7,-1.5,1.2
220,30,88.1343,3.54865,0.648,2.54016,-1.2699,1.2699,88.126,0.651,2.52,-1.32,1.19
225,30,87.4647,3.52614,0.644,2.52448,-1.2618,1.2618,87.467,0.647,2.54,-1.32,1.22
230,30,88.092,2.78772,0.509,1.99528,-0.9976,0.9976,88.103,0.509,1.98,-1.01,0.97
235,30,87.869,2.83444,0.517,2.02664,-1.0143,1.0143,87.866,0.519,2.04,-1.06,0.97
240,30,88.4407,3.21686,0.587,2.30104,-1.1511,1.1511,88.437,0.591,2.34,-1.24,1.1
245,30,86.9067,4.27465,0.78,3.0576,-1.5297,1.5297,86.904,0.779,3.04,-1.62,1.42
250,30,87.464,4.22751,0.772,3.02624,-1.5128,1.5128,87.462,0.772,3.01,-1.62,1.39
255,30,88.6033,2.90228,0.53,2.0776,-1.0386,1.0386,88.605,0.524,2.07,-1.05,1.01
260,30,87.6787,4.26974,0.78,3.0576,-1.5279,1.5279,87.686,0.778,3.05,-1.66,1.39
265,30,88.0367,3.95162,0.721,2.82632,-1.4141,1.4141,88.035,0.723,2.81,-1.56,1.26
270,30,88.666,2.1642,0.395,1.5484,-0.7744,0.7744,88.666,0.395,1.56,-0.79,0.78
275,30,87.6367,3.82804,0.699,2.74008,-1.3698,1.3698,87.64,0.697,2.71,-1.47,1.24
280,30,87.265,4.22409,0.771,3.02232,-1.5116,1.5116,87.264,0.774,3.01,-1.64,1.38
285,30,88.346,3.87287,0.707,2.77144,-1.3859,1.3859,88.353,0.706,2.75,-1.54,1.22
290,30,88.9627,2.21993,0.405,1.5876,-0.7944,0.7944,88.964,0.403,1.58,-0.8,0.78
295,30,88.5353,3.2241,0.589,2.30888,-1.1537,1.1537,88.541,0.591,2.3,-1.2,1.1
300,50,88.245,3.16868,0.448,1.75616,-0.8783,0.8783,88.243,0.453,1.77,-0.92,0.85
305,50,88.2808,3.10633,0.439,1.72088,-0.861,0.861,88.277,0.436,1.71,-0.87,0.84
310,50,87.6776,3.60028,0.509,1.99528,-0.9979,0.9979,87.68,0.504,1.97,-1.05,0.92
315,50,88.4156,3.02022,0.427,1.67384,-0.8372,0.8372,88.417,0.426,1.66,-0.85,0.8
320,50,88.4408,2.91507,0.412,1.61504,-0.808,0.808,88.44,0.407,1.6,-0.8,0.8
325,50,87.973,3.83513,0.542,2.12464,-1.063,1.063,87.968,0.544,2.12,-1.13,1.0
330,50,88.5104,2.88232,0.408,1.59936,-0.7989,0.7989,88.516,0.406,1.58,-0.82,0.76
335,50,88.164,3.60764,0.51,1.9992,-1.0,1.0,88.168,0.511,1.99,-1.07,0.92
340,50,88.6946,2.88421,0.408,1.59936,-0.7995,0.7995,88.697,0.411,1.6,-0.84,0.77
345,50,88.3282,3.39255,0.48,1.8816,-0.9404,0.9404,88.329,0.484,1.89,-1.02,0.87
350,50,87.9358,3.6029,0.51,1.9992,-0.9987,0.9987,87.932,0.509,1.99,-1.08,0.92
355,50,88.109,3.68016,0.52,2.0384,-1.0201,1.0201,88.106,0.52,2.02,-1.08,0.95
360,50,87.7342,3.43918,0.486,1.90512,-0.9533,0.9533,87.732,0.492,1.91,-1.01,0.9
365,50,88.5812,2.56439,0.363,1.42296,-0.7108,0.7108,88.582,0.363,1.42,-0.74,0.67
370,50,88.337,3.47504,0.491,1.92472,-0.9632,0.9632,88.345,0.486,1.89,-1.01,0.89
375,50,88.4448,2.46976,0.349,1.36808,-0.6846,0.6846,88.445,0.35,1.36,-0.7,0.67
380,50,88.2194,3.5963,0.509,1.99528,-0.9968,0.9968,88.214,0.511,2.01,-1.08,0.93
385,50,88.4816,2.32614,0.329,1.28968,-0.6448,0.6448,88.481,0.331,1.28,-0.65,0.63
390,50,88.5478,2.53704,0.359,1.40728,-0.7032,0.7032,88.55,0.36,1.4,-0.7,0.7
395,50,88.2648,3.82289,0.541,2.12072,-1.0597,1.0597,88.267,0.542,2.14,-1.14,1.0
400,100,88.2626,3.29328,0.329,1.28968,-0.6455,0.6455,88.265,0.33,1.31,-0.68,0.62
405,100,88.0902,3.34257,0.334,1.30928,-0.6551,0.6551,88.089,0.334,1.3,-0.67,0.63
410,100,88.2612,3.09783,0.31,1.2152,-0.6072,0.6072,88.264,0.309,1.21,-0.63,0.57
415,100,88.2667,3.30257,0.33,1.2936,-0.6473,0.6473,88.267,0.33,1.3,-0.68,0.62
420,100,88.0944,3.29628,0.33,1.2936,-0.6461,0.6461,88.096,0.332,1.29,-0.68,0.61
425,100,88.2688,3.19341,0.319,1.25048,-0.6259,0.6259,88.267,0.319,1.25,-0.66,0.6
430,100,88.2743,3.12901,0.313,1.22696,-0.6133,0.6133,88.27,0.312,1.23,-0.65,0.58
435,100,88.2422,3.36051,0.336,1.31712,-0.6587,0.6587,88.244,0.333,1.31,-0.68,0.63
440,100,88.258,3.2607,0.326,1.27792,-0.6391,0.6391,88.256,0.325,1.27,-0.67,0.6
445,100,88.2767,3.16953,0.317,1.24264,-0.6212,0.6212,88.281,0.321,1.25,-0.65,0.6
450,100,88.3148,3.34009,0.334,1.30928,-0.6547,0.6547,88.313,0.332,1.29,-0.67,0.61
455,100,88.2729,3.32082,0.332,1.30144,-0.6509,0.6509,88.271,0.331,1.31,-0.68,0.63
460,100,88.3422,3.1902,0.319,1.25048,-0.6253,0.6253,88.34,0.321,1.27,-0.66,0.61
465,100,88.1075,3.27603,0.328,1.28576,-0.6421,0.6421,88.109,0.325,1.28,-0.67,0.61
470,100,88.1776,3.18295,0.318,1.24656,-0.6239,0.6239,88.178,0.32,1.26,-0.65,0.6
475,100,88.1351,3.35135,0.335,1.3132,-0.6569,0.6569,88.134,0.335,1.32,-0.68,0.64
480,100,88.1646,3.30621,0.331,1.29752,-0.648,0.648,88.159,0.329,1.28,-0.67,0.61
485,100,88.2997,3.14527,0.315,1.2348,-0.6165,0.6165,88.296,0.315,1.23,-0.65,0.58
490,100,88.1467,3.34809,0.335,1.3132,-0.6562,0.6562,88.148,0.336,1.32,-0.69,0.64
495,100,88.2515,3.18468,0.318,1.24656,-0.6242,0.6242,88.248,0.32,1.25,-0.65,0.6
500,110,88.1973,3.25215,0.31,1.2152,-0.6078,0.6078,88.197,0.305,1.19,-0.62,0.57
505,110,88.1973,3.25215,0.31,1.2152,-0.6078,0.6078,88.197,0.311,1.22,-0.64,0.59
510,110,88.1973,3.25215,0.31,1.2152,-0.6078,0.6078,88.196,0.311,1.21,-0.63,0.58
515,110,88.1973,3.25215,0.31,1.2152,-0.6078,0.6078,88.199,0.308,1.21,-0.63,0.58
520,110,88.1973,3.25215,0.31,1.2152,-0.6078,0.6078,88.2,0.31,1.24,-0.64,0.6
525,110,88.1973,3.25215,0.31,1.2152,-0.6078,0.6078,88.195,0.31,1.21,-0.63,0.59
530,110,88.1973,3.25215,0.31,1.2152,-0.6078,0.6078,88.193,0.31,1.23,-0.64,0.58
535,110,88.1973,3.25215,0.31,1.2152,-0.6078,0.6078,88.202,0.31,1.21,-0.63,0.58
540,110,88.1973,3.25215,0.31,1.2152,-0.6078,0.6078,88.2,0.308,1.22,-0.63,0.59
545,110,88.1973,3.25215,0.31,1.2152,-0.6078,0.6078,88.201,0.307,1.2,-0.62,0.58
550,110,88.1973,3.25215,0.31,1.2152,-0.6078,0.6078,88.199,0.311,1.23,-0.63,0.6
555,110,88.1973,3.25215,0.31,1.2152,-0.6078,0.6078,88.196,0.311,1.22,-0.63,0.59
560,110,88.1973,3.25215,0.31,1.2152,-0.6078,0.6078,88.204,0.309,1.21,-0.63,0.59
565,110,88.1973,3.25215,0.31,1.2152,-0.6078,0.6078,88.199,0.308,1.2,-0.62,0.58
570,110,88.1973,3.25215,0.31,1.2152,-0.6078,0.6078,88.194,0.309,1.21,-0.62,0.58
575,110,88.1973,3.25215,0.31,1.2152,-0.6078,0.6078,88.197,0.313,1.23,-0.64,0.59
580,110,88.1973,3.25215,0.31,1.2152,-0.6078,0.6078,88.191,0.31,1.22,-0.63,0.59
585,110,88.1973,3.25215,0.31,1.2152,-0.6078,0.6078,88.198,0.311,1.23,-0.65,0.59
590,110,88.1973,3.25215,0.31,1.2152,-0.6078,0.6078,88.199,0.309,1.2,-0.63,0.58
595,110,88.1973,3.25215,0.31,1.2152,-0.6078,0.6078,88.197,0.309,1.21,-0.63,0.58
599,110,88.1973,3.25215,0.31,1.2152,-0.6078,0.6078,88.195,0.311,1.23,-0.64,0.59